Folder: PyBaMM_Fork/scripts/testing/Laborzelle/Au_Ref

File: 20241029_Long_OCV_A3_03_OCV_C03.mpt
EC-Lab ASCII FILE
Nb header lines : 48

Open Circuit Voltage

Run on channel : 3 (SN 18804)
User :
Electrode connection : standard
Potential control : Ewe-Ece
Ewe ctrl range : min = -5,00 V, max = 5,00 V
Ewe,I filtering : <None>
Safety Limits :
	Do not start on E overload
Channel : Floating
Acquisition started on : 10/29/2024 09:04:26.660
Loaded Setting File :  NONE
Saved on :
	File : 20241029_Long_OCV_A3_03_OCV_C03.mpr
	Directory : C:\Users\admin\Desktop\Andre\CircularLIB_iFBGA8_Test\A3_iFBG_Gold\Long_OCV\
	Host : 192.168.10.210
Device : VSP-300 (SN 1300)
Address : 192.168.10.241
EC-LAB for windows v11.61 (software)
Internet server v11.61 (firmware)
Command interpretor v11.61 (firmware)
Electrode material :
Initial state :
Electrolyte :
Comments :
Current amplifier : B-2A30V
Cable : standard
Electrode surface area : 0,001 cm²
Characteristic mass : 0,001 g
Equivalent Weight : 0,000 g/eq.
Density : 0,000 g/cm3
Volume (V) : 0,001 cm³
Record Ece
Record EIS quality indicators
Cycle Definition : Charge/Discharge alternance
tR (h:m:s)          5:00:0,0000
dER/dt (mV/h)       1,0
record              <Ewe>
dER (mV)            0,00
dtR (s)             1,0000
E range min (V)     -5,000
E range max (V)     5,000

mode	error	time/s	<Ewe/V>	<Ece>/V	Ewe-Ece/V
3	0	9,282874630481121E+003	3,8403080E+000	-2,7450910E-001	4,1148171E+000
3	0	9,288874630408478E+003	3,8378541E+000	-2,7592066E-001	4,1137748E+000
3	0	9,294874630335835E+003	3,8373334E+000	-2,7595031E-001	4,1132836E+000
3	0	9,300874630263192E+003	3,8370051E+000	-2,7594125E-001	4,1129465E+000
3	0	9,306874630190548E+003	3,8367698E+000	-2,7590927E-001	4,1126790E+000
3	0	9,312874630117905E+003	3,8365765E+000	-2,7587575E-001	4,1124520E+000
3	0	9,318874630045262E+003	3,8364346E+000	-2,7584556E-001	4,1122804E+000
3	0	9,324874629972619E+003	3,8363178E+000	-2,7583104E-001	4,1121488E+000
3	0	9,330874629899976E+003	3,8362350E+000	-2,7578539E-001	4,1120205E+000
3	0	9,336874629827333E+003	3,8361483E+000	-2,7577212E-001	4,1119204E+000
3	0	9,342874629754690E+003	3,8360968E+000	-2,7576831E-001	4,1118650E+000
3	0	9,348874629682046E+003	3,8360400E+000	-2,7575696E-001	4,1117969E+000
3	0	9,354874629609403E+003	3,8359954E+000	-2,7575788E-001	4,1117535E+000
3	0	9,360874629536760E+003	3,8359611E+000	-2,7574453E-001	4,1117058E+000
3	0	9,366874629464117E+003	3,8359299E+000	-2,7572373E-001	4,1116538E+000
3	0	9,372874629391474E+003	3,8358889E+000	-2,7569634E-001	4,1115851E+000
3	0	9,378874629318831E+003	3,8358688E+000	-2,7569503E-001	4,1115637E+000
3	0	9,384874629246187E+003	3,8358536E+000	-2,7566746E-001	4,1115212E+000
3	0	9,390874629173544E+003	3,8358278E+000	-2,7566740E-001	4,1114950E+000
3	0	9,396874629100901E+003	3,8358073E+000	-2,7566257E-001	4,1114697E+000
3	0	9,402874629028258E+003	3,8357849E+000	-2,7566597E-001	4,1114507E+000
3	0	9,408874628955615E+003	3,8357854E+000	-2,7566665E-001	4,1114521E+000
3	0	9,414874628882972E+003	3,8357806E+000	-2,7566510E-001	4,1114459E+000
3	0	9,420874628810328E+003	3,8357661E+000	-2,7566493E-001	4,1114311E+000
3	0	9,426874628737685E+003	3,8357439E+000	-2,7566749E-001	4,1114116E+000
3	0	9,432874628665042E+003	3,8357372E+000	-2,7564895E-001	4,1113863E+000
3	0	9,438874628592399E+003	3,8357177E+000	-2,7562028E-001	4,1113381E+000
3	0	9,444874628519756E+003	3,8357003E+000	-2,7562502E-001	4,1113253E+000
3	0	9,450874628447113E+003	3,8356967E+000	-2,7562314E-001	4,1113200E+000
3	0	9,456874628374469E+003	3,8356905E+000	-2,7562138E-001	4,1113119E+000
3	0	9,462874628301826E+003	3,8356900E+000	-2,7560377E-001	4,1112938E+000
3	0	9,468874628229183E+003	3,8356776E+000	-2,7560341E-001	4,1112809E+000
3	0	9,474874628156540E+003	3,8356690E+000	-2,7560878E-001	4,1112776E+000
3	0	9,480874628083897E+003	3,8356593E+000	-2,7560323E-001	4,1112623E+000
3	0	9,486874628011254E+003	3,8356650E+000	-2,7560401E-001	4,1112690E+000
3	0	9,492874627938611E+003	3,8356416E+000	-2,7559596E-001	4,1112375E+000
3	0	9,498874627865967E+003	3,8356473E+000	-2,7560139E-001	4,1112490E+000
3	0	9,504874627793324E+003	3,8356314E+000	-2,7559009E-001	4,1112213E+000
3	0	9,510874627720681E+003	3,8356435E+000	-2,7560422E-001	4,1112475E+000
3	0	9,516874627648038E+003	3,8356397E+000	-2,7559131E-001	4,1112309E+000
3	0	9,522874627575395E+003	3,8356245E+000	-2,7559382E-001	4,1112185E+000
3	0	9,528874627502752E+003	3,8356183E+000	-2,7557528E-001	4,1111937E+000
3	0	9,534874627430108E+003	3,8356116E+000	-2,7557886E-001	4,1111903E+000
3	0	9,540874627357465E+003	3,8356013E+000	-2,7559054E-001	4,1111917E+000
3	0	9,546874627284822E+003	3,8355978E+000	-2,7561450E-001	4,1112123E+000
3	0	9,552874627212179E+003	3,8355947E+000	-2,7560833E-001	4,1112032E+000
3	0	9,558874627139536E+003	3,8355966E+000	-2,7560571E-001	4,1112022E+000
3	0	9,564874627066893E+003	3,8355947E+000	-2,7561751E-001	4,1112123E+000
3	0	9,570874626994249E+003	3,8355842E+000	-2,7561471E-001	4,1111989E+000
3	0	9,576874626921606E+003	3,8355854E+000	-2,7560288E-001	4,1111884E+000
3	0	9,582874626848963E+003	3,8355854E+000	-2,7560055E-001	4,1111860E+000
3	0	9,588874626776320E+003	3,8355947E+000	-2,7560490E-001	4,1111994E+000
3	0	9,594874626703677E+003	3,8355911E+000	-2,7559406E-001	4,1111851E+000
3	0	9,600874626631034E+003	3,8355849E+000	-2,7558631E-001	4,1111712E+000
3	0	9,606874626558390E+003	3,8355892E+000	-2,7559456E-001	4,1111836E+000
3	0	9,612874626485747E+003	3,8355725E+000	-2,7559900E-001	4,1111717E+000
3	0	9,618874626413104E+003	3,8355670E+000	-2,7558470E-001	4,1111517E+000
3	0	9,624874626340461E+003	3,8355572E+000	-2,7558401E-001	4,1111412E+000
3	0	9,630874626267818E+003	3,8355639E+000	-2,7558950E-001	4,1111536E+000
3	0	9,636874626195175E+003	3,8355498E+000	-2,7557531E-001	4,1111250E+000
3	0	9,642874626122531E+003	3,8355536E+000	-2,7560622E-001	4,1111598E+000
3	0	9,648874626049888E+003	3,8355663E+000	-2,7560180E-001	4,1111679E+000
3	0	9,654874625977245E+003	3,8355608E+000	-2,7560818E-001	4,1111689E+000
3	0	9,660874625904602E+003	3,8355486E+000	-2,7560273E-001	4,1111512E+000
3	0	9,666874625831959E+003	3,8355536E+000	-2,7561247E-001	4,1111660E+000
3	0	9,672874625759316E+003	3,8355455E+000	-2,7562886E-001	4,1111746E+000
3	0	9,678874625686673E+003	3,8355470E+000	-2,7561629E-001	4,1111631E+000
3	0	9,684874625614029E+003	3,8355427E+000	-2,7561152E-001	4,1111541E+000
3	0	9,690874625541386E+003	3,8355494E+000	-2,7560052E-001	4,1111498E+000
3	0	9,696874625468743E+003	3,8355491E+000	-2,7559760E-001	4,1111469E+000
3	0	9,702874625396100E+003	3,8355572E+000	-2,7560329E-001	4,1111603E+000
3	0	9,708874625323457E+003	3,8355443E+000	-2,7559364E-001	4,1111379E+000
3	0	9,714874625250814E+003	3,8355303E+000	-2,7560872E-001	4,1111388E+000
3	0	9,720874625178170E+003	3,8355360E+000	-2,7561578E-001	4,1111517E+000
3	0	9,726874625105527E+003	3,8355479E+000	-2,7563241E-001	4,1111803E+000
3	0	9,732874625032884E+003	3,8355572E+000	-2,7564177E-001	4,1111989E+000
3	0	9,738874624960241E+003	3,8355517E+000	-2,7564234E-001	4,1111941E+000
3	0	9,744874624887598E+003	3,8355286E+000	-2,7564216E-001	4,1111708E+000
3	0	9,750874624814955E+003	3,8355353E+000	-2,7563637E-001	4,1111717E+000
3	0	9,756874624742311E+003	3,8355403E+000	-2,7563494E-001	4,1111751E+000
3	0	9,762874624669668E+003	3,8355463E+000	-2,7564278E-001	4,1111889E+000
3	0	9,768874624597025E+003	3,8355327E+000	-2,7564541E-001	4,1111779E+000
3	0	9,774874624524382E+003	3,8355350E+000	-2,7562934E-001	4,1111646E+000
3	0	9,780874624451739E+003	3,8355384E+000	-2,7561745E-001	4,1111560E+000
3	0	9,786874624379096E+003	3,8355334E+000	-2,7561992E-001	4,1111531E+000
3	0	9,792874624306452E+003	3,8355248E+000	-2,7560633E-001	4,1111312E+000
3	0	9,798874624233809E+003	3,8355284E+000	-2,7560738E-001	4,1111360E+000
3	0	9,804874624161166E+003	3,8355279E+000	-2,7558336E-001	4,1111112E+000
3	0	9,810874624088523E+003	3,8355243E+000	-2,7560335E-001	4,1111279E+000
3	0	9,816874624015880E+003	3,8355212E+000	-2,7559623E-001	4,1111174E+000
3	0	9,822874623943237E+003	3,8355143E+000	-2,7559695E-001	4,1111112E+000
3	0	9,828874623870594E+003	3,8355010E+000	-2,7560070E-001	4,1111016E+000
3	0	9,834874623797950E+003	3,8355069E+000	-2,7559802E-001	4,1111050E+000
3	0	9,840874623725307E+003	3,8354955E+000	-2,7558979E-001	4,1110854E+000
3	0	9,846874623652664E+003	3,8354950E+000	-2,7557287E-001	4,1110678E+000
3	0	9,852874623580021E+003	3,8355021E+000	-2,7559209E-001	4,1110945E+000
3	0	9,858874623507378E+003	3,8355088E+000	-2,7559027E-001	4,1110992E+000
3	0	9,864874623434735E+003	3,8355057E+000	-2,7559859E-001	4,1111045E+000
3	0	9,870874623362091E+003	3,8355100E+000	-2,7558881E-001	4,1110988E+000
3	0	9,876874623289448E+003	3,8355010E+000	-2,7560753E-001	4,1111083E+000
3	0	9,882874623216805E+003	3,8354886E+000	-2,7560645E-001	4,1110950E+000
3	0	9,888874623144162E+003	3,8354819E+000	-2,7562290E-001	4,1111050E+000
3	0	9,894874623071519E+003	3,8354924E+000	-2,7561516E-001	4,1111073E+000
3	0	9,900874622998876E+003	3,8354959E+000	-2,7562943E-001	4,1111255E+000
3	0	9,906874622926232E+003	3,8354874E+000	-2,7563027E-001	4,1111178E+000
3	0	9,912874622853589E+003	3,8354821E+000	-2,7560562E-001	4,1110878E+000
3	0	9,918874622780946E+003	3,8354740E+000	-2,7560407E-001	4,1110783E+000
3	0	9,924874622708303E+003	3,8354733E+000	-2,7560154E-001	4,1110749E+000
3	0	9,930874622635660E+003	3,8354747E+000	-2,7560651E-001	4,1110811E+000
3	0	9,936874622563017E+003	3,8354747E+000	-2,7560881E-001	4,1110835E+000
3	0	9,942874622490373E+003	3,8354716E+000	-2,7561605E-001	4,1110878E+000
3	0	9,948874622417730E+003	3,8354723E+000	-2,7560499E-001	4,1110773E+000
3	0	9,954874622345087E+003	3,8354623E+000	-2,7560845E-001	4,1110706E+000
3	0	9,960874622272444E+003	3,8354826E+000	-2,7561173E-001	4,1110945E+000
3	0	9,966874622199801E+003	3,8354788E+000	-2,7562222E-001	4,1111012E+000
3	0	9,972874622127158E+003	3,8354616E+000	-2,7559480E-001	4,1110563E+000
3	0	9,978874622054514E+003	3,8354619E+000	-2,7561793E-001	4,1110797E+000
3	0	9,984874621981871E+003	3,8354685E+000	-2,7560243E-001	4,1110711E+000
3	0	9,990874621909228E+003	3,8354642E+000	-2,7561748E-001	4,1110816E+000
3	0	9,994694621862989E+003	3,8354599E+000	-2,7560431E-001	4,1110644E+000